Folder: RobotAircraft2023/rohang23_jb/Data

File: Data_battery_status_0.csv
timestamp,voltage_v,voltage_filtered_v,current_a,current_filtered_a,current_average_a,discharged_mah,remaining,scale,time_remaining_s,temperature,voltage_cell_v[0],voltage_cell_v[1],voltage_cell_v[2],voltage_cell_v[3],voltage_cell_v[4],voltage_cell_v[5],voltage_cell_v[6],voltage_cell_v[7],voltage_cell_v[8],voltage_cell_v[9],voltage_cell_v[10],voltage_cell_v[11],voltage_cell_v[12],voltage_cell_v[13],max_cell_voltage_delta,custom_faults,average_power,available_energy,full_charge_capacity_wh,remaining_capacity_wh,design_capacity,nominal_voltage,capacity,cycle_count,average_time_to_empty,serial_number,manufacture_date,state_of_health,max_error,interface_error,faults,average_time_to_full,over_discharge_count,connected,cell_count,source,priority,id,is_powering_off,is_required,warning,mode
217452562,24.9243,24.92907,1.794625,1.78267,14.9707,108.967,1.0,1.0,nan,nan,0.0,0.0,0.0,0.0,0.0,0.0,0.0,0.0,0.0,0.0,0.0,0.0,0.0,0.0,0.0,0,0.0,0.0,0.0,0.0,0.0,0.0,0,0,0,0,0,0,0,0,0,0,0,1,6,0,0,1,0,0,0,0
223462560,23.5471,24.0502,23.51325,19.7536,14.1197,121.135,1.0,1.0,nan,nan,0.0,0.0,0.0,0.0,0.0,0.0,0.0,0.0,0.0,0.0,0.0,0.0,0.0,0.0,0.0,0,0.0,0.0,0.0,0.0,0.0,0.0,0,0,0,0,0,0,0,0,0,0,0,1,6,0,0,1,0,0,0,0
229652561,23.1917,23.529,21.1986,21.5079,15.0896,159.756,1.0,1.0,nan,nan,0.0,0.0,0.0,0.0,0.0,0.0,0.0,0.0,0.0,0.0,0.0,0.0,0.0,0.0,0.0,0,0.0,0.0,0.0,0.0,0.0,0.0,0,0,0,0,0,0,0,0,0,0,0,1,6,0,0,1,0,0,0,0
235862561,22.9711,23.0409,27.9595,30.5756,16.0205,199.406,1.0,1.0,nan,nan,0.0,0.0,0.0,0.0,0.0,0.0,0.0,0.0,0.0,0.0,0.0,0.0,0.0,0.0,0.0,0,0.0,0.0,0.0,0.0,0.0,0.0,0,0,0,0,0,0,0,0,0,0,0,1,6,0,0,1,0,0,0,0
242052560,22.88,22.7041,30.5599,30.4358,17.6095,250.3387,0.950254,1.0068,nan,nan,0.0,0.0,0.0,0.0,0.0,0.0,0.0,0.0,0.0,0.0,0.0,0.0,0.0,0.0,0.0,0,0.0,0.0,0.0,0.0,0.0,0.0,0,0,0,0,0,0,0,0,0,0,0,1,6,0,0,1,0,0,0,0
248252560,22.7624,22.77445,23.0261,25.0893,19.0035,301.326,0.934217,1.00901,nan,nan,0.0,0.0,0.0,0.0,0.0,0.0,0.0,0.0,0.0,0.0,0.0,0.0,0.0,0.0,0.0,0,0.0,0.0,0.0,0.0,0.0,0.0,0,0,0,0,0,0,0,0,0,0,0,1,6,0,0,1,0,0,0,0
254452561,22.26204,22.7895,33.6602,27.31378,19.5269,341.7459,0.982732,1.00235,nan,nan,0.0,0.0,0.0,0.0,0.0,0.0,0.0,0.0,0.0,0.0,0.0,0.0,0.0,0.0,0.0,0,0.0,0.0,0.0,0.0,0.0,0.0,0,0,0,0,0,0,0,0,0,0,0,1,6,0,0,1,0,0,0,0
260652925,22.8608,22.8678,22.3998,23.0867,19.9651,381.8283,0.954869,1.00617,nan,nan,0.0,0.0,0.0,0.0,0.0,0.0,0.0,0.0,0.0,0.0,0.0,0.0,0.0,0.0,0.0,0,0.0,0.0,0.0,0.0,0.0,0.0,0,0,0,0,0,0,0,0,0,0,0,1,6,0,0,1,0,0,0,0
266862560,21.9303,21.7118,32.42045,34.7085,21.55007,439.2899,0.365102,1.09436,nan,nan,0.0,0.0,0.0,0.0,0.0,0.0,0.0,0.0,0.0,0.0,0.0,0.0,0.0,0.0,0.0,0,0.0,0.0,0.0,0.0,0.0,0.0,0,0,0,0,0,0,0,0,0,0,0,1,6,0,0,1,0,0,0,0
273052561,22.3623,22.7788,20.2207,19.8079,21.5691,476.877,0.539032,1.06678,nan,nan,0.0,0.0,0.0,0.0,0.0,0.0,0.0,0.0,0.0,0.0,0.0,0.0,0.0,0.0,0.0,0,0.0,0.0,0.0,0.0,0.0,0.0,0,0,0,0,0,0,0,0,0,0,0,1,6,0,0,1,0,0,0,0
279262587,22.016,22.1805,25.7382,27.71453,22.02944,520.71,0.3577295,1.09556,nan,nan,0.0,0.0,0.0,0.0,0.0,0.0,0.0,0.0,0.0,0.0,0.0,0.0,0.0,0.0,0.0,0,0.0,0.0,0.0,0.0,0.0,0.0,0,0,0,0,0,0,0,0,0,0,0,1,6,0,0,1,0,0,0,0
285452561,23.05952,22.653,18.9534,19.0537,21.91805,556.9901,0.500917,1.0727,nan,nan,0.0,0.0,0.0,0.0,0.0,0.0,0.0,0.0,0.0,0.0,0.0,0.0,0.0,0.0,0.0,0,0.0,0.0,0.0,0.0,0.0,0.0,0,0,0,0,0,0,0,0,0,0,0,1,6,0,0,1,0,0,0,0
291652561,22.5555,22.6168,19.5761,19.8516,21.6757,591.151,0.4899369,1.074423,nan,nan,0.0,0.0,0.0,0.0,0.0,0.0,0.0,0.0,0.0,0.0,0.0,0.0,0.0,0.0,0.0,0,0.0,0.0,0.0,0.0,0.0,0.0,0,0,0,0,0,0,0,0,0,0,0,1,6,0,0,1,0,0,0,0
297852561,22.7651,22.6443,18.85638,18.7346,21.3757,624.071,0.498267,1.07312,nan,nan,0.0,0.0,0.0,0.0,0.0,0.0,0.0,0.0,0.0,0.0,0.0,0.0,0.0,0.0,0.0,0,0.0,0.0,0.0,0.0,0.0,0.0,0,0,0,0,0,0,0,0,0,0,0,1,6,0,0,1,0,0,0,0
304052583,22.6102,22.6621,14.2581,15.96094,21.1001,656.7972,0.503655,1.07228,nan,nan,0.0,0.0,0.0,0.0,0.0,0.0,0.0,0.0,0.0,0.0,0.0,0.0,0.0,0.0,0.0,0,0.0,0.0,0.0,0.0,0.0,0.0,0,0,0,0,0,0,0,0,0,0,0,1,6,0,0,1,0,0,0,0
310262793,23.79138,23.5758,1.955775,2.20162,19.915,675.92,0.7805477,1.03072,nan,nan,0.0,0.0,0.0,0.0,0.0,0.0,0.0,0.0,0.0,0.0,0.0,0.0,0.0,0.0,0.0,0,0.0,0.0,0.0,0.0,0.0,0.0,0,0,0,0,0,0,0,0,0,0,0,1,6,0,0,1,0,0,0,0
316452836,23.6784,23.8254,1.5236,1.85731,17.811,679.0926,0.8561807,1.01992,nan,nan,0.0,0.0,0.0,0.0,0.0,0.0,0.0,0.0,0.0,0.0,0.0,0.0,0.0,0.0,0.0,0,0.0,0.0,0.0,0.0,0.0,0.0,0,0,0,0,0,0,0,0,0,0,0,1,6,0,0,1,0,0,0,0
322662561,23.4004,23.2744,16.0033,13.329,16.4315,689.2173,0.689219,1.04406,nan,nan,0.0,0.0,0.0,0.0,0.0,0.0,0.0,0.0,0.0,0.0,0.0,0.0,0.0,0.0,0.0,0,0.0,0.0,0.0,0.0,0.0,0.0,0,0,0,0,0,0,0,0,0,0,0,1,6,0,0,1,0,0,0,0
328852576,22.6995,23.0659,13.4487,13.84786,15.9554,710.4418,0.6260434,1.0535,nan,nan,0.0,0.0,0.0,0.0,0.0,0.0,0.0,0.0,0.0,0.0,0.0,0.0,0.0,0.0,0.0,0,0.0,0.0,0.0,0.0,0.0,0.0,0,0,0,0,0,0,0,0,0,0,0,1,6,0,0,1,0,0,0,0
335052560,22.6585,23.1354,15.2067,13.6193,15.3486,728.9513,0.6470886,1.05034,nan,nan,0.0,0.0,0.0,0.0,0.0,0.0,0.0,0.0,0.0,0.0,0.0,0.0,0.0,0.0,0.0,0,0.0,0.0,0.0,0.0,0.0,0.0,0,0,0,0,0,0,0,0,0,0,0,1,6,0,0,1,0,0,0,0
341252561,21.6705,21.9412,28.1445,28.3073,16.574,773.3084,0.285225,1.1075,nan,nan,0.0,0.0,0.0,0.0,0.0,0.0,0.0,0.0,0.0,0.0,0.0,0.0,0.0,0.0,0.0,0,0.0,0.0,0.0,0.0,0.0,0.0,0,0,0,0,0,0,0,0,0,0,0,1,6,0,0,1,0,0,0,0
347452599,21.51104,21.7959,27.5475,28.0764,17.9327,821.927,0.241184,1.11489,nan,nan,0.0,0.0,0.0,0.0,0.0,0.0,0.0,0.0,0.0,0.0,0.0,0.0,0.0,0.0,0.0,0,0.0,0.0,0.0,0.0,0.0,0.0,0,0,0,0,0,0,0,0,0,0,0,1,6,0,0,1,0,0,0,0
353662561,22.2256,22.1581,20.4807,20.43932,18.6502,863.634,0.350928,1.09667,nan,nan,0.0,0.0,0.0,0.0,0.0,0.0,0.0,0.0,0.0,0.0,0.0,0.0,0.0,0.0,0.0,0,0.0,0.0,0.0,0.0,0.0,0.0,0,0,0,0,0,0,0,0,0,0,0,1,6,0,0,1,0,0,0,0
359852562,21.8574,22.2701,16.8969,18.581,18.7483,897.1669,0.3848701,1.09115,nan,nan,0.0,0.0,0.0,0.0,0.0,0.0,0.0,0.0,0.0,0.0,0.0,0.0,0.0,0.0,0.0,0,0.0,0.0,0.0,0.0,0.0,0.0,0,0,0,0,0,0,0,0,0,0,0,1,6,0,0,1,0,0,0,0
366062604,22.0798,22.4062,16.87497,16.5096,18.4967,925.8141,0.426122,1.08452,nan,nan,0.0,0.0,0.0,0.0,0.0,0.0,0.0,0.0,0.0,0.0,0.0,0.0,0.0,0.0,0.0,0,0.0,0.0,0.0,0.0,0.0,0.0,0,0,0,0,0,0,0,0,0,0,0,1,6,0,0,1,0,0,0,0
372252560,22.0925,22.2943,17.4335,17.5523,18.4371,956.755,0.3922258,1.08996,nan,nan,0.0,0.0,0.0,0.0,0.0,0.0,0.0,0.0,0.0,0.0,0.0,0.0,0.0,0.0,0.0,0,0.0,0.0,0.0,0.0,0.0,0.0,0,0,0,0,0,0,0,0,0,0,0,1,6,0,0,1,0,0,0,0
378452575,22.005,22.2133,18.3235,18.47,18.3965,987.891,0.367678,1.09394,nan,nan,0.0,0.0,0.0,0.0,0.0,0.0,0.0,0.0,0.0,0.0,0.0,0.0,0.0,0.0,0.0,0,0.0,0.0,0.0,0.0,0.0,0.0,0,0,0,0,0,0,0,0,0,0,0,1,6,0,0,1,0,0,0,0
384652970,23.2145,22.7982,3.99945,6.18821,18.0772,1015.05,0.7321139,1.03775,nan,nan,0.0,0.0,0.0,0.0,0.0,0.0,0.0,0.0,0.0,0.0,0.0,0.0,0.0,0.0,0.0,0,0.0,0.0,0.0,0.0,0.0,0.0,0,0,0,0,0,0,0,0,0,0,0,1,6,0,0,1,0,0,0,0
390852560,21.7289,22.0164,27.6555,24.41438,18.0177,1044.92,0.853465,1.0203,nan,nan,0.0,0.0,0.0,0.0,0.0,0.0,0.0,0.0,0.0,0.0,0.0,0.0,0.0,0.0,0.0,0,0.0,0.0,0.0,0.0,0.0,0.0,0,0,0,0,0,0,0,0,0,0,0,1,6,0,0,1,0,0,0,0
397062561,21.4153,21.387,34.66373,32.7868,19.58996,1099.17,0.5914679,1.05874,nan,nan,0.0,0.0,0.0,0.0,0.0,0.0,0.0,0.0,0.0,0.0,0.0,0.0,0.0,0.0,0.0,0,0.0,0.0,0.0,0.0,0.0,0.0,0,0,0,0,0,0,0,0,0,0,0,1,6,0,0,1,0,0,0,0
403252560,21.9604,22,20.4935,20.0537,19.8385,1136.61,0.6849199,1.0447,nan,nan,0.0,0.0,0.0,0.0,0.0,0.0,0.0,0.0,0.0,0.0,0.0,0.0,0.0,0.0,0.0,0,0.0,0.0,0.0,0.0,0.0,0.0,0,0,0,0,0,0,0,0,0,0,0,1,6,0,0,1,0,0,0,0
409462561,21.7735,21.8499,27.67385,23.83788,19.97486,1172.82,0.679171,1.04555,nan,nan,0.0,0.0,0.0,0.0,0.0,0.0,0.0,0.0,0.0,0.0,0.0,0.0,0.0,0.0,0.0,0,0.0,0.0,0.0,0.0,0.0,0.0,0,0,0,0,0,0,0,0,0,0,0,1,6,0,0,1,0,0,0,0
415652560,21.6004,21.6571,27.7068,25.2369,20.4187,1213.73,0.6236363,1.05386,nan,nan,0.0,0.0,0.0,0.0,0.0,0.0,0.0,0.0,0.0,0.0,0.0,0.0,0.0,0.0,0.0,0,0.0,0.0,0.0,0.0,0.0,0.0,0,0,0,0,0,0,0,0,0,0,0,1,6,0,0,1,0,0,0,0
421852641,21.9494,21.8134,20.7004,20.9169,20.67879,1252.79,0.630899,1.05277,nan,nan,0.0,0.0,0.0,0.0,0.0,0.0,0.0,0.0,0.0,0.0,0.0,0.0,0.0,0.0,0.0,0,0.0,0.0,0.0,0.0,0.0,0.0,0,0,0,0,0,0,0,0,0,0,0,1,6,0,0,1,0,0,0,0
428052561,21.5703,21.6792,22.9511,22.7487,20.8521,1290.94,0.606864,1.0564,nan,nan,0.0,0.0,0.0,0.0,0.0,0.0,0.0,0.0,0.0,0.0,0.0,0.0,0.0,0.0,0.0,0,0.0,0.0,0.0,0.0,0.0,0.0,0,0,0,0,0,0,0,0,0,0,0,1,6,0,0,1,0,0,0,0
434252561,21.7298,21.7017,21.5099,21.4405,20.9652,1328.551,0.604459,1.05676,nan,nan,0.0,0.0,0.0,0.0,0.0,0.0,0.0,0.0,0.0,0.0,0.0,0.0,0.0,0.0,0.0,0,0.0,0.0,0.0,0.0,0.0,0.0,0,0,0,0,0,0,0,0,0,0,0,1,6,0,0,1,0,0,0,0
440462559,21.6067,21.5859,23.1855,23.0901,21.0986,1366.66,0.5829597,1.06004,nan,nan,0.0,0.0,0.0,0.0,0.0,0.0,0.0,0.0,0.0,0.0,0.0,0.0,0.0,0.0,0.0,0,0.0,0.0,0.0,0.0,0.0,0.0,0,0,0,0,0,0,0,0,0,0,0,1,6,0,0,1,0,0,0,0
446652877,21.5457,21.6286,21.7241,20.9867,21.1708,1404.04,0.5828615,1.06005,nan,nan,0.0,0.0,0.0,0.0,0.0,0.0,0.0,0.0,0.0,0.0,0.0,0.0,0.0,0.0,0.0,0,0.0,0.0,0.0,0.0,0.0,0.0,0,0,0,0,0,0,0,0,0,0,0,1,6,0,0,1,0,0,0,0
452863293,21.6441,21.5469,21.8505,21.99238,21.2049,1441.04,0.5585514,1.063773,nan,nan,0.0,0.0,0.0,0.0,0.0,0.0,0.0,0.0,0.0,0.0,0.0,0.0,0.0,0.0,0.0,0,0.0,0.0,0.0,0.0,0.0,0.0,0,0,0,0,0,0,0,0,0,0,0,1,6,0,0,1,0,0,0,0
459052560,21.5202,21.5401,21.37435,21.3476,21.2139,1477.64,0.557715,1.0639,nan,nan,0.0,0.0,0.0,0.0,0.0,0.0,0.0,0.0,0.0,0.0,0.0,0.0,0.0,0.0,0.0,0,0.0,0.0,0.0,0.0,0.0,0.0,0,0,0,0,0,0,0,0,0,0,0,1,6,0,0,1,0,0,0,0
465252564,21.3789,21.4475,22.9016,21.7537,21.2589,1514.838,0.5383406,1.066888,nan,nan,0.0,0.0,0.0,0.0,0.0,0.0,0.0,0.0,0.0,0.0,0.0,0.0,0.0,0.0,0.0,0,0.0,0.0,0.0,0.0,0.0,0.0,0,0,0,0,0,0,0,0,0,0,0,1,6,0,0,1,0,0,0,0
471452563,21.5466,21.41339,21.9036,21.5484,21.2991,1552.03,0.5201345,1.06971,nan,nan,0.0,0.0,0.0,0.0,0.0,0.0,0.0,0.0,0.0,0.0,0.0,0.0,0.0,0.0,0.0,0,0.0,0.0,0.0,0.0,0.0,0.0,0,0,0,0,0,0,0,0,0,0,0,1,6,0,0,1,0,0,0,0
477652615,22.6339,22.5651,1.97775,1.86046,19.3585,1560.25,0.474819,1.0768,nan,nan,0.0,0.0,0.0,0.0,0.0,0.0,0.0,0.0,0.0,0.0,0.0,0.0,0.0,0.0,0.0,0,0.0,0.0,0.0,0.0,0.0,0.0,0,0,0,0,0,0,0,0,0,0,0,1,6,0,0,1,0,0,0,0
483862586,22.7214,22.6694,1.98874,1.88415,17.3189,1563.52,0.5064364,1.07184,nan,nan,0.0,0.0,0.0,0.0,0.0,0.0,0.0,0.0,0.0,0.0,0.0,0.0,0.0,0.0,0.0,0,0.0,0.0,0.0,0.0,0.0,0.0,0,0,0,0,0,0,0,0,0,0,0,1,6,0,0,1,0,0,0,0
490052785,22.5355,22.71991,1.838575,2.08322,15.534,1566.94,0.52173,1.06946,nan,nan,0.0,0.0,0.0,0.0,0.0,0.0,0.0,0.0,0.0,0.0,0.0,0.0,0.0,0.0,0.0,0,0.0,0.0,0.0,0.0,0.0,0.0,0,0,0,0,0,0,0,0,0,0,0,1,6,0,0,1,0,0,0,0
496262695,22.8353,22.7595,2.1682,2.11237,13.9645,1570.55,0.5337344,1.0676,nan,nan,0.0,0.0,0.0,0.0,0.0,0.0,0.0,0.0,0.0,0.0,0.0,0.0,0.0,0.0,0.0,0,0.0,0.0,0.0,0.0,0.0,0.0,0,0,0,0,0,0,0,0,0,0,0,1,6,0,0,1,0,0,0,0
502452560,22.849,22.7843,1.9631,1.87063,12.565,1573.9,0.541256,1.06644,nan,nan,0.0,0.0,0.0,0.0,0.0,0.0,0.0,0.0,0.0,0.0,0.0,0.0,0.0,0.0,0.0,0,0.0,0.0,0.0,0.0,0.0,0.0,0,0,0,0,0,0,0,0,0,0,0,1,6,0,0,1,0,0,0,0
508652572,22.6786,22.8022,1.69574,1.87198,11.317,1577.11,0.54668,1.0656,nan,nan,0.0,0.0,0.0,0.0,0.0,0.0,0.0,0.0,0.0,0.0,0.0,0.0,0.0,0.0,0.0,0,0.0,0.0,0.0,0.0,0.0,0.0,0,0,0,0,0,0,0,0,0,0,0,1,6,0,0,1,0,0,0,0
510852592,22.8681,22.7747,2.1096,1.83073,11.0773,1578.23,0.5383459,1.06689,nan,nan,0.0,0.0,0.0,0.0,0.0,0.0,0.0,0.0,0.0,0.0,0.0,0.0,0.0,0.0,0.0,0,0.0,0.0,0.0,0.0,0.0,0.0,0,0,0,0,0,0,0,0,0,0,0,1,6,0,0,1,0,0,0,0